 # mass    139.578003      MeV
 # Ekin    45000.0000      MeV
 # path   0.260206014      um
 # mean dE/dx    373.898499      eV/um
 #         j      dE [eV]      dE*dE*dsig/ddE [eV*eV/cm]
 START
           1      1.79589844          1106.63220    
           2      1.81545448          1131.18982    
           3      1.83522356          1156.29834    
           4      1.85520780          1181.96387    
           5      1.87540972          1208.19897    
           6      1.89583158          1235.01611    
           7      1.91647589          1262.38025    
           8      1.93734491          1290.33716    
           9      1.95844126          1318.91321    
          10      1.97976732          1348.12134    
          11      2.00132561          1377.97144    
          12      2.02311873          1408.40466    
          13      2.04514909          1439.50964    
          14      2.06741929          1471.30139    
          15      2.08993196          1503.79456    
          16      2.11268973          1537.29724    
          17      2.13569546          1571.77966    
          18      2.15895176          1607.03015    
          19      2.18246126          1643.06445    
          20      2.20622683          1679.65894    
          21      2.23025107          1716.36755    
          22      2.25453687          1778.91333    
          23      2.27908707          1819.35559    
          24      2.30390477          1860.38464    
          25      2.32899261          1902.37878    
          26      2.35435367          1945.22986    
          27      2.37999082          1988.97363    
          28      2.40590715          2033.69812    
          29      2.43210578          2079.55176    
          30      2.45858979          2126.42407    
          31      2.48536205          2174.28882    
          32      2.51242590          2223.21924    
          33      2.53978443          2273.21045    
          34      2.56744099          2324.29004    
          35      2.59539866          2376.48022    
          36      2.62366080          2428.37769    
          37      2.65223050          2481.15503    
          38      2.68111134          2535.06519    
          39      2.71030664          2590.48267    
          40      2.73982000          2647.61890    
          41      2.76965475          2705.98950    
          42      2.79981422          2765.64478    
          43      2.83030224          2826.51367    
          44      2.86112213          2888.68555    
          45      2.89227772          2952.21460    
          46      2.92377257          3015.80518    
          47      2.95561028          3080.37720    
          48      2.98779488          3146.39062    
          49      3.02032995          3210.69849    
          50      3.05321932          3274.74048    
          51      3.08646679          3340.43384    
          52      3.12007618          3399.91235    
          53      3.15405154          3456.48047    
          54      3.18839693          3515.60522    
          55      3.22311640          3535.10132    
          56      3.25821376          3539.66724    
          57      3.29369330          3550.84692    
          58      3.32955933          3476.05347    
          59      3.36581588          3380.85742    
          60      3.40246725          3295.33252    
          61      3.43951774          3295.01172    
          62      3.47697163          3281.60767    
          63      3.51483345          3285.26562    
          64      3.55310750          3334.41699    
          65      3.59179831          3382.08569    
          66      3.63091040          3435.42969    
          67      3.67044854          3490.60327    
          68      3.71041703          3544.56177    
          69      3.75082088          3594.81836    
          70      3.79166460          3645.00781    
          71      3.83295321          3691.82031    
          72      3.87469125          3737.88159    
          73      3.91688395          3779.22192    
          74      3.95953608          3813.70557    
          75      4.00265265          3846.41724    
          76      4.04623890          3845.33130    
          77      4.09029961          3845.90015    
          78      4.13484001          3768.62061    
          79      4.17986536          3672.15479    
          80      4.22538090          3535.59717    
          81      4.27139235          3346.37158    
          82      4.31790495          3165.65674    
          83      4.36492395          2980.84106    
          84      4.41245508          2784.46826    
          85      4.46050358          2703.79663    
          86      4.50907516          2604.92676    
          87      4.55817556          2582.17896    
          88      4.60781097          2552.23657    
          89      4.65798664          2620.09668    
          90      4.70870876          2697.98682    
          91      4.75998306          2816.90991    
          92      4.81181574          2949.07031    
          93      4.86421299          3089.76587    
          94      4.91718102          3244.00464    
          95      4.97072554          3408.35132    
          96      5.02485323          3582.93481    
          97      5.07957029          3764.38770    
          98      5.13488340          3935.59155    
          99      5.19079876          4101.58398    
         100      5.24732304          4198.77002    
         101      5.30446243          4275.95459    
         102      5.36222410          4268.07129    
         103      5.42061472          4260.39697    
         104      5.47964144          4257.82275    
         105      5.53931093          4303.09863    
         106      5.59962988          4376.17334    
         107      5.66060591          4488.72021    
         108      5.72224569          4603.12793    
         109      5.78455687          4717.92090    
         110      5.84754658          4819.08984    
         111      5.91122198          4913.46631    
         112      5.97559118          4998.73682    
         113      6.04066133          5120.39893    
         114      6.10644007          5271.03564    
         115      6.17293501          5427.37354    
         116      6.24015379          5594.52100    
         117      6.30810452          5772.40186    
         118      6.37679529          5958.49902    
         119      6.44623423          6156.63086    
         120      6.51642895          6366.50000    
         121      6.58738804          6587.44434    
         122      6.65912008          6824.45020    
         123      6.73163319          7076.08008    
         124      6.80493593          7345.06104    
         125      6.87903690          7663.09082    
         126      6.95394468          8005.12061    
         127      7.02966833          8354.84863    
         128      7.10621643          8695.49316    
         129      7.18359804          9054.97852    
         130      7.26182222          9241.63184    
         131      7.34089851          9368.96582    
         132      7.42083549          9518.65332    
         133      7.50164318          9767.20898    
         134      7.58333063          10017.2119    
         135      7.66590786          10322.7344    
         136      7.74938440          10652.2510    
         137      7.83376980          11009.4707    
         138      7.91907406          11408.9199    
         139      8.00530720          11827.8916    
         140      8.09247971          12256.5322    
         141      8.18060112          12706.7236    
         142      8.26968193          13153.1211    
         143      8.35973263          13610.6230    
         144      8.45076466          14146.0576    
         145      8.54278755          14764.2510    
         146      8.63581276          15417.3037    
         147      8.72985077          16101.6553    
         148      8.82491302          16802.3145    
         149      8.92101002          17448.0254    
         150      9.01815319          18160.5957    
         151      9.11635494          19082.6270    
         152      9.21562576          20043.2383    
         153      9.31597710          20853.0273    
         154      9.41742134          21745.8906    
         155      9.51996994          22902.2383    
         156      9.62363529          24134.7207    
         157      9.72842979          25373.9688    
         158      9.83436584          26704.3379    
         159      9.94145489          28118.1074    
         160      10.0497103          29660.9375    
         161      10.1591444          31352.2988    
         162      10.2697706          33265.9297    
         163      10.3816013          35415.6641    
         164      10.4946499          37626.1367    
         165      10.6089296          40020.4844    
         166      10.7244530          42538.7891    
         167      10.8412342          45276.8125    
         168      10.9592876          48215.7344    
         169      11.0786266          51380.0938    
         170      11.1992655          54837.3398    
         171      11.3212175          58525.6680    
         172      11.4444971          62568.6875    
         173      11.5691195          66960.8203    
         174      11.6950989          71725.4766    
         175      11.8224506          76968.5703    
         176      11.9511890          91582.4688    
         177      12.0813293          98143.3750    
         178      12.2128868          105230.727    
         179      12.3458767          113089.641    
         180      12.4803143          121690.070    
         181      12.6162157          131059.039    
         182      12.7535973          141514.609    
         183      12.8924751          153084.188    
         184      13.0328655          165815.078    
         185      13.1747847          180029.672    
         186      13.3182487          196058.281    
         187      13.4632750          213913.266    
         188      13.6098804          233839.688    
         189      13.7580824          256732.656    
         190      13.9078979          282981.594    
         191      14.0593452          312750.469    
         192      14.2124414          346359.719    
         193      14.3672047          384406.938    
         194      14.5236530          427399.625    
         195      14.6818056          475701.125    
         196      14.8416805          529917.062    
         197      15.0032959          590671.688    
         198      15.1666708          659365.438    
         199      15.3318253          735645.250    
         200      15.4987783          819408.812    
         201      15.6675491          910083.500    
         202      15.8381577          1006303.31    
         203      16.0106239          1105644.62    
         204      16.1849689          1204079.38    
         205      16.3612118          1295875.38    
         206      16.5393734          1375121.50    
         207      16.7194748          1436029.00    
         208      16.9015388          1474035.00    
         209      17.0855846          1486739.12    
         210      17.2716351          1474368.62    
         211      17.4597111          1439615.25    
         212      17.6498356          1386931.00    
         213      17.8420296          1321559.00    
         214      18.0363159          1248647.50    
         215      18.2327194          1172625.12    
         216      18.4312611          1096935.00    
         217      18.6319637          1024039.00    
         218      18.8348522          955576.062    
         219      19.0399513          892628.438    
         220      19.2472820          836066.312    
         221      19.4568710          787280.562    
         222      19.6687431          756216.750    
         223      19.8829212          699363.875    
         224      20.0994320          596978.062    
         225      20.3183002          538168.625    
         226      20.5395527          486160.250    
         227      20.7632141          454728.188    
         228      20.9893112          424239.719    
         229      21.2178707          386711.312    
         230      21.4489174          349237.531    
         231      21.6824818          323492.938    
         232      21.9185886          301252.031    
         233      22.1572666          283418.250    
         234      22.3985443          267924.344    
         235      22.6424484          254169.906    
         236      22.8890095          241667.094    
         237      23.1382542          230492.875    
         238      23.3902130          220376.812    
         239      23.6449165          211266.406    
         240      23.9023933          202910.031    
         241      24.1626740          195395.750    
         242      24.4257889          188379.062    
         243      24.6917686          181997.562    
         244      24.9606438          175851.812    
         245      25.2324467          170324.953    
         246      25.5072098          164925.062    
         247      25.7849655          161044.938    
         248      26.0657463          157281.938    
         249      26.3495846          153946.031    
         250      26.6365128          150860.875    
         251      26.9265652          148055.750    
         252      27.2197762          145498.484    
         253      27.5161800          143039.203    
         254      27.8158112          140998.938    
         255      28.1187057          139057.078    
         256      28.4248981          137277.828    
         257      28.7344246          135658.531    
         258      29.0473213          134109.297    
         259      29.3636265          132700.688    
         260      29.6833763          131352.109    
         261      30.0066071          130052.203    
         262      30.3333569          129045.844    
         263      30.6636658          128031.062    
         264      30.9975719          127007.352    
         265      31.3351135          126149.258    
         266      31.6763306          125284.844    
         267      32.0212631          124420.531    
         268      32.3699532          123664.258    
         269      32.7224388          122900.547    
         270      33.0787621          122160.578    
         271      33.4389648          121524.039    
         272      33.8030930          120881.086    
         273      34.1711845          120277.531    
         274      34.5432854          119720.703    
         275      34.9194374          119158.344    
         276      35.2996864          118641.039    
         277      35.6840744          118131.461    
         278      36.0726471          117633.148    
         279      36.4654541          117201.992    
         280      36.8625374          116766.281    
         281      37.2639427          116339.531    
         282      37.6697197          115914.414    
         283      38.0799179          115484.148    
         284      38.4945831          115048.312    
         285      38.9137611          114605.633    
         286      39.3375053          114235.195    
         287      39.7658615          113880.320    
         288      40.1988831          113519.688    
         289      40.6366196          113152.406    
         290      41.0791245          112784.508    
         291      41.5264473          112435.414    
         292      41.9786415          112080.305    
         293      42.4357605          111727.195    
         294      42.8978577          111367.961    
         295      43.3649864          110994.242    
         296      43.8372002          110610.258    
         297      44.3145561          110247.727    
         298      44.7971115          109892.758    
         299      45.2849197          109543.906    
         300      45.7780418          109197.398    
         301      46.2765312          108850.828    
         302      46.7804489          108502.156    
         303      47.2898560          108152.812    
         304      47.8048096          107800.883    
         305      48.3253708          107438.109    
         306      48.8516006          107065.312    
         307      49.3835602          106698.062    
         308      49.9213104          106327.391    
         309      50.4649200          105955.641    
         310      51.0144463          105576.656    
         311      51.5699577          105207.508    
         312      52.1315193          104833.867    
         313      52.6991959          104466.461    
         314      53.2730522          104102.359    
         315      53.8531570          103743.602    
         316      54.4395790          103386.961    
         317      55.0323868          103025.797    
         318      55.6316490          102677.203    
         319      56.2374382          102314.242    
         320      56.8498230          101933.711    
         321      57.4688759          101543.836    
         322      58.0946693          101147.805    
         323      58.7272797          100762.344    
         324      59.3667793          100386.586    
         325      60.0132408          100016.000    
         326      60.6667442          99644.2500    
         327      61.3273621          99271.9844    
         328      61.9951744          98899.8125    
         329      62.6702576          98518.7266    
         330      63.3526917          98138.2812    
         331      64.0425568          97758.5000    
         332      64.7399368          97378.9297    
         333      65.4449081          97003.4297    
         334      66.1575546          96629.2812    
         335      66.8779602          96255.4062    
         336      67.6062164          95883.0859    
         337      68.3423996          95509.2812    
         338      69.0866013          95133.8906    
         339      69.8389053          94761.8125    
         340      70.5994034          94390.9219    
         341      71.3681793          94028.6094    
         342      72.1453247          93673.9688    
         343      72.9309387          93310.5234    
         344      73.7251053          92954.0312    
         345      74.5279160          92591.8906    
         346      75.3394699          92236.3281    
         347      76.1598663          91893.9062    
         348      76.9891968          91544.4062    
         349      77.8275528          91208.6719    
         350      78.6750412          90866.9297    
         351      79.5317535          90533.0703    
         352      80.3977966          90203.8281    
         353      81.2732697          89878.6641    
         354      82.1582794          89567.5234    
         355      83.0529251          89255.3750    
         356      83.9573135          88945.1328    
         357      84.8715515          88666.5469    
         358      85.7957458          88422.9219    
         359      86.7300034          88204.0938    
         360      87.6744308          88043.1484    
         361      88.6291428          88090.7031    
         362      89.5942535          88710.7578    
         363      90.5698700          89754.4609    
         364      91.5561142          91152.4844    
         365      92.5530930          93087.7266    
         366      93.5609283          96002.9531    
         367      94.5797424          100395.922    
         368      95.6096497          107426.242    
         369      96.6507721          116923.180    
         370      97.7032318          128429.250    
         371      98.7671509          147967.828    
         372      99.8426590          173676.688    
         373      100.929878          435798.750    
         374      102.028931          399231.688    
         375      103.139954          397375.281    
         376      104.263077          394356.844    
         377      105.398430          410127.969    
         378      106.546143          441237.281    
         379      107.706352          471736.531    
         380      108.879196          499656.000    
         381      110.064812          480249.562    
         382      111.263336          573306.500    
         383      112.474915          646131.625    
         384      113.699684          685913.125    
         385      114.937790          707891.688    
         386      116.189384          722943.250    
         387      117.454605          732025.875    
         388      118.733604          738480.750    
         389      120.026527          742791.000    
         390      121.333534          746333.188    
         391      122.654770          750193.125    
         392      123.990395          754392.312    
         393      125.340561          758989.562    
         394      126.705429          763678.062    
         395      128.085159          768538.125    
         396      129.479919          774479.312    
         397      130.889862          780762.188    
         398      132.315155          787255.688    
         399      133.755966          793849.375    
         400      135.212479          800036.875    
         401      136.684845          805426.000    
         402      138.173248          810005.750    
         403      139.677856          814713.875    
         404      141.198853          819534.875    
         405      142.736404          824435.938    
         406      144.290695          831012.875    
         407      145.861923          844677.625    
         408      147.450256          859236.375    
         409      149.055878          881716.625    
         410      150.678986          901144.188    
         411      152.319778          910081.375    
         412      153.978439          918651.250    
         413      155.655151          925296.562    
         414      157.350128          929020.125    
         415      159.063553          928862.750    
         416      160.795639          927764.688    
         417      162.546585          926487.500    
         418      164.316605          924459.625    
         419      166.105896          921935.562    
         420      167.914673          918873.062    
         421      169.743149          915016.688    
         422      171.591537          912238.562    
         423      173.460052          909083.188    
         424      175.348907          905508.625    
         425      177.258331          902774.250    
         426      179.188553          899299.312    
         427      181.139786          896074.250    
         428      183.112274          892884.250    
         429      185.106232          889062.875    
         430      187.121902          886110.438    
         431      189.159531          882453.625    
         432      191.219345          878300.938    
         433      193.301590          873438.812    
         434      195.406509          868137.688    
         435      197.534348          863601.500    
         436      199.685364          858250.875    
         437      201.859802          853690.562    
         438      204.057907          848682.500    
         439      206.279953          843925.688    
         440      208.526199          839173.125    
         441      210.796906          835969.500    
         442      213.092331          836465.250    
         443      215.412750          836511.000    
         444      217.758438          836108.125    
         445      220.129669          835236.875    
         446      222.526718          834267.438    
         447      224.949875          832798.875    
         448      227.399414          831796.375    
         449      229.875626          830328.438    
         450      232.378815          829182.438    
         451      234.909256          827570.312    
         452      237.467255          826360.875    
         453      240.053101          824767.188    
         454      242.667114          823497.375    
         455      245.309586          821762.500    
         456      247.980835          819700.625    
         457      250.681168          817393.562    
         458      253.410904          815329.750    
         459      256.170380          813178.750    
         460      258.959900          811042.438    
         461      261.779785          808792.500    
         462      264.630371          806340.188    
         463      267.511993          804169.312    
         464      270.425018          801775.938    
         465      273.369751          799573.062    
         466      276.346558          797215.125    
         467      279.355774          794848.312    
         468      282.397766          792634.250    
         469      285.472870          790231.875    
         470      288.581482          787858.562    
         471      291.723938          785402.000    
         472      294.900604          782809.438    
         473      298.111877          780373.562    
         474      301.358093          775811.438    
         475      304.639679          768339.875    
         476      307.957001          761360.562    
         477      311.310425          754181.625    
         478      314.700378          746792.375    
         479      318.127228          739518.562    
         480      321.591400          732181.625    
         481      325.093292          724846.250    
         482      328.633331          717894.438    
         483      332.211914          710938.875    
         484      335.829468          703993.000    
         485      339.486420          697215.062    
         486      343.183197          690620.562    
         487      346.920227          684042.562    
         488      350.697937          677498.375    
         489      354.516785          671097.375    
         490      358.377228          664738.938    
         491      362.279694          658400.312    
         492      366.224670          652112.062    
         493      370.212585          645873.188    
         494      374.243927          639838.062    
         495      378.319183          633893.500    
         496      382.438812          627854.125    
         497      386.603302          621765.250    
         498      390.813141          615743.500    
         499      395.068817          609802.938    
         500      399.370850          604039.188    
         501      403.719727          598351.188    
         502      408.115936          592735.750    
         503      412.560028          587184.062    
         504      417.052521          581704.812    
         505      421.593933          576289.312    
         506      426.184784          570898.688    
         507      430.825623          565551.625    
         508      435.516998          560275.688    
         509      440.259460          555076.188    
         510      445.053589          549946.438    
         511      449.899902          544836.938    
         512      454.798981          539660.250    
         513      459.751434          534558.000    
         514      464.757812          529527.500    
         515      469.818695          524571.125    
         516      474.934692          519685.438    
         517      480.106384          514885.281    
         518      485.334412          510162.688    
         519      490.619354          505500.781    
         520      495.961853          500854.219    
         521      501.362518          496265.562    
         522      506.821991          491743.875    
         523      512.340942          487282.219    
         524      517.919983          482819.781    
         525      523.559753          478349.875    
         526      529.260925          473920.375    
         527      535.024231          469546.031    
         528      540.850281          465274.625    
         529      546.739746          461069.594    
         530      552.693359          456922.125    
         531      558.711792          452811.188    
         532      564.795776          448695.500    
         533      570.945984          444661.219    
         534      577.163208          440699.688    
         535      583.448120          436779.281    
         536      589.801453          432894.312    
         537      596.223999          429101.500    
         538      602.716431          425413.750    
         539      609.279602          421674.094    
         540      615.914246          418099.375    
         541      622.621094          414484.906    
         542      629.401001          410906.406    
         543      636.254761          407488.062    
         544      643.183105          404044.219    
         545      650.186890          400587.250    
         546      657.266968          397230.469    
         547      664.424133          393861.750    
         548      671.659241          390481.625    
         549      678.973145          387168.188    
         550      686.366699          383975.750    
         551      693.840759          380774.438    
         552      701.396179          377567.094    
         553      709.033875          374407.219    
         554      716.754761          371346.625    
         555      724.559692          368300.469    
         556      732.449646          365272.250    
         557      740.425476          362291.000    
         558      748.488159          359395.812    
         559      756.638672          356541.219    
         560      764.877930          353718.438    
         561      773.206909          350933.812    
         562      781.626587          348172.688    
         563      790.137939          345441.188    
         564      798.742004          342764.969    
         565      807.439758          340121.250    
         566      816.232178          337502.938    
         567      825.120361          334910.656    
         568      834.105347          332332.188    
         569      843.188171          329767.500    
         570      852.369873          327225.094    
         571      861.651550          324749.531    
         572      871.034302          322335.688    
         573      880.519226          319958.781    
         574      890.107483          317599.094    
         575      899.800110          315280.469    
         576      909.598267          312978.469    
         577      919.503174          310705.938    
         578      929.515930          308468.531    
         579      939.637695          306278.719    
         580      949.869690          304098.188    
         581      960.213074          301954.250    
         582      970.669128          299833.938    
         583      981.239014          297711.625    
         584      991.924011          295619.812    
         585      1002.72534          293606.375    
         586      1013.64429          291614.438    
         587      1024.68213          289643.562    
         588      1035.84021          287695.688    
         589      1047.11975          285768.312    
         590      1058.52209          283850.375    
         591      1070.04871          281989.375    
         592      1081.70081          280153.406    
         593      1093.47974          278344.719    
         594      1105.38696          276543.000    
         595      1117.42383          274755.750    
         596      1129.59180          272985.750    
         597      1141.89221          271282.344    
         598      1154.32666          269611.406    
         599      1166.89648          267940.344    
         600      1179.60315          266279.969    
         601      1192.44824          264651.031    
         602      1205.43311          263062.562    
         603      1218.55945          261483.875    
         604      1231.82874          259927.203    
         605      1245.24243          258379.016    
         606      1258.80225          256842.953    
         607      1272.50977          255349.641    
         608      1286.36646          253890.938    
         609      1300.37402          252433.172    
         610      1314.53418          251012.344    
         611      1328.84851          249590.062    
         612      1343.31873          248197.859    
         613      1357.94653          246838.953    
         614      1372.73364          245484.297    
         615      1387.68176          244141.422    
         616      1402.79260          242819.016    
         617      1418.06799          241531.094    
         618      1433.50977          240264.953    
         619      1449.11963          238998.703    
         620      1464.89954          237763.938    
         621      1480.85120          236552.641    
         622      1496.97656          235359.750    
         623      1513.27759          234186.891    
         624      1529.75610          233020.922    
         625      1546.41406          231870.844    
         626      1563.25342          230728.828    
         627      1580.27612          229592.734    
         628      1597.48425          228476.719    
         629      1614.87976          227402.469    
         630      1632.46460          226361.781    
         631      1650.24097          225335.031    
         632      1668.21094          224322.781    
         633      1686.37659          223323.000    
         634      1704.73999          222337.203    
         635      1723.30334          221361.938    
         636      1742.06885          220418.562    
         637      1761.03870          219533.672    
         638      1780.21521          218681.891    
         639      1799.60046          217916.594    
         640      1819.19678          217351.688    
         641      1839.00659          672866.500    
         642      1859.03210          652888.312    
         643      1879.27563          642879.125    
         644      1899.73962          634165.312    
         645      1920.42639          626293.562    
         646      1941.33850          618710.438    
         647      1962.47827          611400.438    
         648      1983.84827          604335.250    
         649      2005.45093          597523.375    
         650      2027.28882          590803.375    
         651      2049.36450          584319.625    
         652      2071.68066          577855.312    
         653      2094.23975          571602.188    
         654      2117.04443          565462.375    
         655      2140.09766          559384.188    
         656      2163.40186          553578.688    
         657      2186.95972          547724.375    
         658      2210.77417          541927.188    
         659      2234.84790          536389.125    
         660      2259.18384          530768.062    
         661      2283.78467          525255.312    
         662      2308.65356          520292.844    
         663      2333.79321          515139.250    
         664      2359.20654          510058.781    
         665      2384.89673          505048.688    
         666      2410.86646          500227.969    
         667      2437.11914          495356.312    
         668      2463.65771          490562.219    
         669      2490.48511          485779.188    
         670      2517.60474          481139.031    
         671      2545.01978          476436.375    
         672      2572.73315          471962.344    
         673      2600.74829          467328.750    
         674      2629.06860          463043.656    
         675      2657.69727          458606.406    
         676      2686.63770          454339.625    
         677      2715.89331          450083.531    
         678      2745.46753          445841.438    
         679      2775.36377          441787.844    
         680      2805.58545          437645.906    
         681      2836.13623          433670.094    
         682      2867.01978          429734.469    
         683      2898.23950          425764.562    
         684      2929.79932          421992.844    
         685      2961.70264          418171.062    
         686      2993.95337          414407.969    
         687      3026.55542          410757.094    
         688      3059.51245          407078.812    
         689      3092.82837          403463.562    
         690      3126.50708          399987.375    
         691      3160.55249          396472.469    
         692      3194.96875          393034.344    
         693      3229.75977          389692.156    
         694      3264.92944          386331.781    
         695      3300.48218          382982.125    
         696      3336.42212          379779.312    
         697      3372.75342          376570.562    
         698      3409.48022          373419.000    
         699      3446.60693          370309.875    
         700      3484.13794          367300.344    
         701      3522.07764          364292.188    
         702      3560.43066          361290.281    
         703      3599.20117          358358.875    
         704      3638.39404          355492.781    
         705      3678.01367          352668.344    
         706      3718.06470          349879.469    
         707      3758.55176          347123.062    
         708      3799.47974          344368.312    
         709      3840.85327          341730.688    
         710      3882.67749          339087.594    
         711      3924.95703          336497.375    
         712      3967.69702          333937.469    
         713      4010.90234          331415.062    
         714      4054.57812          328910.594    
         715      4098.72949          326465.875    
         716      4143.36182          324074.969    
         717      4188.47998          321681.500    
         718      4234.08936          319362.844    
         719      4280.19580          317097.531    
         720      4326.80420          314829.750    
         721      4373.91992          312596.031    
         722      4421.54883          310396.438    
         723      4469.69629          308230.531    
         724      4518.36816          306099.188    
         725      4567.56982          303986.969    
         726      4617.30762          301924.812    
         727      4667.58691          299877.031    
         728      4718.41357          297860.625    
         729      4769.79395          295906.969    
         730      4821.73340          294024.906    
         731      4874.23877          292075.938    
         732      4927.31592          290199.000    
         733      4980.97070          288319.719    
         734      5035.20996          286502.969    
         735      5090.04004          284696.625    
         736      5145.46680          282899.250    
         737      5201.49707          281148.281    
         738      5258.13770          279414.188    
         739      5315.39502          277722.125    
         740      5373.27588          276037.094    
         741      5431.78711          274358.406    
         742      5490.93555          272736.406    
         743      5550.72803          271103.594    
         744      5611.17139          269548.031    
         745      5672.27295          268008.000    
         746      5734.04004          266504.781    
         747      5796.47949          264997.844    
         748      5859.59912          263535.219    
         749      5923.40576          262095.672    
         750      5987.90723          260674.031    
         751      6053.11133          259265.312    
         752      6119.02539          257893.469    
         753      6185.65723          256521.406    
         754      6253.01465          255188.266    
         755      6321.10547          253901.578    
         756      6389.93799          252616.922    
         757      6459.52002          251353.953    
         758      6529.85938          250112.500    
         759      6600.96484          248884.562    
         760      6672.84473          247699.188    
         761      6745.50732          246494.578    
         762      6818.96094          245329.188    
         763      6893.21436          244162.156    
         764      6968.27637          243058.781    
         765      7044.15576          241945.328    
         766      7120.86182          240854.016    
         767      7198.40283          239790.797    
         768      7276.78857          238729.938    
         769      7356.02783          237688.078    
         770      7436.12988          236680.906    
         771      7517.10400          235674.625    
         772      7598.95996          234703.734    
         773      7681.70703          233742.781    
         774      7765.35547          232796.578    
         775      7849.91455          231865.312    
         776      7935.39453          230940.734    
         777      8021.80518          230045.062    
         778      8109.15674          229150.562    
         779      8197.45996          228285.406    
         780      8286.72461          227437.984    
         781      8376.96094          226604.875    
         782      8468.17969          225773.047    
         783      8560.39258          224955.500    
         784      8653.60938          224165.734    
         785      8747.84082          223372.672    
         786      8843.09863          222612.359    
         787      8939.39355          221852.438    
         788      9036.73730          221106.484    
         789      9135.14062          220361.109    
         790      9234.61621          219653.547    
         791      9335.17480          218946.766    
         792      9436.82812          218252.500    
         793      9539.58887          217570.609    
         794      9643.46777          216901.125    
         795      9748.47852          216243.328    
         796      9854.63281          215586.328    
         797      9961.94238          214952.688    
         798      10070.4209          214330.469    
         799      10180.0811          213719.141    
         800      10290.9346          213107.375    
         801      10402.9951          212517.750    
         802      10516.2764          211935.469    
         803      10630.7910          211356.328    
         804      10746.5527          210797.703    
         805      10863.5752          210239.641    
         806      10981.8721          209701.781    
         807      11101.4570          209162.484    
         808      11222.3438          208644.250    
         809      11344.5469          208124.266    
         810      11468.0811          207624.406    
         811      11592.9600          207113.094    
         812      11719.1992          206631.109    
         813      11846.8135          206147.750    
         814      11975.8164          205683.031    
         815      12106.2246          205207.531    
         816      12238.0527          204759.359    
         817      12371.3164          204310.016    
         818      12506.0312          203877.484    
         819      12642.2129          203432.391    
         820      12779.8779          203007.062    
         821      12919.0420          202589.359    
         822      13059.7217          202178.969    
         823      13201.9326          201784.250    
         824      13345.6924          201380.406    
         825      13491.0176          200991.844    
         826      13637.9248          200610.500    
         827      13786.4326          200235.812    
         828      13936.5566          199875.766    
         829      14088.3154          199506.531    
         830      14241.7275          199144.219    
         831      14396.8096          198803.062    
         832      14553.5811          198460.906    
         833      14712.0596          198117.719    
         834      14872.2637          197787.922    
         835      15034.2119          197463.797    
         836      15197.9238          197143.188    
         837      15363.4180          196823.891    
         838      15530.7148          196517.172    
         839      15699.8330          196215.719    
         840      15870.7930          195919.922    
         841      16043.6143          195622.797    
         842      16218.3174          195343.828    
         843      16394.9238          195057.031    
         844      16573.4531          194775.688    
         845      16753.9258          194499.172    
         846      16936.3633          194239.703    
         847      17120.7891          193973.062    
         848      17307.2227          193717.125    
         849      17495.6855          193459.891    
         850      17686.2012          193212.875    
         851      17878.7910          192970.250    
         852      18073.4785          192724.844    
         853      18270.2852          192485.719    
         854      18469.2363          192255.906    
         855      18670.3535          192030.062    
         856      18873.6602          191803.422    
         857      19079.1816          191585.656    
         858      19286.9395          191366.875    
         859      19496.9609          191152.016    
         860      19709.2695          190945.719    
         861      19923.8887          190743.047    
         862      20140.8457          190539.250    
         863      20360.1660          190339.469    
         864      20581.8730          187189.156    
         865      20805.9941          189940.453    
         866      21032.5566          189751.328    
         867      21261.5859          189569.781    
         868      21493.1094          189387.438    
         869      21727.1543          189211.219    
         870      21963.7480          189035.219    
         871      22202.9180          188862.406    
         872      22444.6914          188696.391    
         873      22689.0977          188533.328    
         874      22936.1660          188369.609    
         875      23185.9238          188208.656    
         876      23438.4023          188050.672    
         877      23693.6309          187895.359    
         878      23951.6387          187742.969    
         879      24212.4551          187592.953    
         880      24476.1113          187449.156    
         881      24742.6387          187307.547    
         882      25012.0684          187165.547    
         883      25284.4316          187025.797    
         884      25559.7617          186888.750    
         885      25838.0898          186756.750    
         886      26119.4492          186623.484    
         887      26403.8711          186493.328    
         888      26691.3906          186365.531    
         889      26982.0410          186242.469    
         890      27275.8555          186119.000    
         891      27572.8711          185997.531    
         892      27873.1211          185878.312    
         893      28176.6387          185763.516    
         894      28483.4629          185648.438    
         895      28793.6270          185535.266    
         896      29107.1699          185426.312    
         897      29424.1270          185316.875    
         898      29744.5352          185209.297    
         899      30068.4316          185103.578    
         900      30395.8555          183730.266    
         901      30726.8457          183652.844    
         902      31061.4395          183576.703    
         903      31399.6758          183501.797    
         904      31741.5957          183428.141    
         905      32087.2383          183355.719    
         906      32436.6465          183286.328    
         907      32789.8594          183216.234    
         908      33146.9180          183147.297    
         909      33507.8633          183081.266    
         910      33872.7383          183014.578    
         911      34241.5898          182948.750    
         912      34614.4570          182884.281    
         913      34991.3828          182820.656    
         914      35372.4141          182758.078    
         915      35757.5938          182696.578    
         916      36146.9688          182637.391    
         917      36540.5820          182577.688    
         918      36938.4844          182519.000    
         919      37340.7188          182461.297    
         920      37747.3320          182404.375    
         921      38158.3750          182348.672    
         922      38573.8945          182293.422    
         923      38993.9375          182239.141    
         924      39418.5547          182187.094    
         925      39847.7930          182134.672    
         926      40281.7070          182082.938    
         927      40720.3477          182032.094    
         928      41163.7617          181981.906    
         929      41612.0078          181933.547    
         930      42065.1328          181884.875    
         931      42523.1914          181837.078    
         932      42986.2383          181789.906    
         933      43454.3281          181743.594    
         934      43927.5156          181697.875    
         935      44405.8555          181652.734    
         936      44889.4023          181608.422    
         937      45378.2148          181564.703    
         938      45872.3516          181521.797    
         939      46371.8672          181479.422    
         940      46876.8242          181437.625    
         941      47387.2812          181396.359    
         942      47903.2969          181355.891    
         943      48424.9297          181315.953    
         944      48952.2422          181276.766    
         945      49485.2969          181237.859    
         946      50024.1562          181199.703    
         947      50568.8828          181162.047    
         948      51119.5430          181125.156    
         949      51676.1992          181088.500    
         950      52238.9180          181052.562    
         951      52807.7617          181017.094    
         952      53382.8008          180982.125    
         953      53964.1016          180947.859    
         954      54551.7305          180914.484    
         955      55145.7617          180881.109    
         956      55746.2617          180847.953    
         957      56353.3008          180815.484    
         958      56966.9492          180783.469    
         959      57587.2773          180751.891    
         960      58214.3633          180720.734    
         961      58848.2773          180690.000    
         962      59489.0938          180659.719    
         963      60136.8867          180630.359    
         964      60791.7344          180600.891    
         965      61453.7148          180571.828    
         966      62122.9023          180543.406    
         967      62799.3750          180515.141    
         968      63483.2148          180487.266    
         969      64174.5039          180459.797    
         970      64873.3203          180432.719    
         971      65579.7422          180406.031    
         972      66293.8594          180379.734    
         973      67015.7500          180353.812    
         974      67745.5078          180328.000    
         975      68483.2109          180302.844    
         976      69228.9453          180278.047    
         977      69982.7969          180253.359    
         978      70744.8594          180229.047    
         979      71515.2188          180205.094    
         980      72293.9688          180181.500    
         981      73081.1953          180158.266    
         982      73877.0000          180135.406    
         983      74681.4688          180112.891    
         984      75494.6953          180090.453    
         985      76316.7812          180068.359    
         986      77147.8203          180046.625    
         987      77987.9062          180025.234    
         988      78837.1406          180003.922    
         989      79695.6250          179982.969    
         990      80563.4531          179962.625    
         991      81440.7344          179942.344    
         992      82327.5625          179922.359    
         993      83224.0547          179902.469    
         994      84130.3047          179882.906    
         995      85046.4219          179863.656    
         996      85972.5156          179844.500    
         997      86908.6953          179825.641    
         998      87855.0703          179807.141    
         999      88811.7500          179788.672    
        1000      89778.8438          179770.797    
        1001      90756.4688          179752.703    
        1002      91744.7422          179735.188    
        1003      92743.7812          179717.750    
        1004      93753.6953          179700.594    
        1005      94774.6094          179683.781    
        1006      95806.6406          179667.000    
        1007      96849.9062          179650.266    
        1008      97904.5312          179634.109    
        1009      98970.6406          179617.984    
        1010      100048.359          179601.922    
        1011      101137.812          179586.438    
        1012      102239.133          179570.703    
        1013      103352.445          179555.562    
        1014      104477.883          179540.453    
        1015      105615.570          179525.375    
        1016      106765.648          179510.594    
        1017      107928.250          179496.125    
        1018      109103.516          179481.656    
        1019      110291.578          179467.516    
        1020      111492.578          179453.656    
        1021      112706.656          179439.562    
        1022      113933.953          179426.062    
        1023      115174.609          179412.547    
        1024      116428.781          179399.094    
        1025      117696.609          179385.922    
        1026      118978.242          179373.047    
        1027      120273.828          179360.172    
        1028      121583.523          179347.359    
        1029      122907.484          179334.812    
        1030      124245.859          179322.547    
        1031      125598.812          179310.328    
        1032      126966.492          179298.125    
        1033      128349.070          179286.203    
        1034      129746.703          179274.547    
        1035      131159.547          179262.672    
        1036      132587.781          179251.344    
        1037      134031.562          179240.047    
        1038      135491.078          179228.750    
        1039      136966.484          179217.484    
        1040      138457.953          179206.750    
        1041      139965.656          179195.781    
        1042      141489.781          179185.078    
        1043      143030.500          179174.406    
        1044      144588.000          179164.016    
        1045      146162.453          179153.641    
        1046      147754.062          179143.531    
        1047      149363.000          179133.453    
        1048      150989.453          179123.641    
        1049      152633.625          179113.578    
        1050      154295.703          179104.047    
        1051      155975.875          179094.297    
        1052      157674.344          179084.812    
        1053      159391.312          179075.578    
        1054      161126.969          179066.125    
        1055      162881.531          179057.172    
        1056      164655.203          179048.000    
        1057      166448.188          179039.094    
        1058      168260.688          179030.203    
        1059      170092.922          179021.562    
        1060      171945.109          179012.938    
        1061      173817.469          179004.344    
        1062      175710.219          178995.734    
        1063      177623.578          178987.422    
        1064      179557.766          178979.375    
        1065      181513.016          178971.125    
        1066      183489.562          178963.094    
        1067      185487.641          178955.312    
        1068      187507.469          178947.297    
        1069      189549.297          178939.547    
        1070      191613.359          178931.812    
        1071      193699.891          178924.328    
        1072      195809.141          178916.859    
        1073      197941.359          178909.391    
        1074      200096.797          178901.938    
        1075      202275.703          178894.766    
        1076      204478.344          178887.594    
        1077      206704.969          178880.672    
        1078      208955.844          178873.500    
        1079      211231.219          178866.609    
        1080      213531.375          178859.719    
        1081      215856.578          178853.078    
        1082      218207.109          178846.469    
        1083      220583.234          178839.828    
        1084      222985.234          178833.234    
        1085      225413.391          178826.625    
        1086      227867.984          178820.281    
        1087      230349.312          178813.938    
        1088      232857.656          178807.859    
        1089      235393.312          178801.531    
        1090      237956.578          178795.469    
        1091      240547.750          178789.422    
        1092      243167.141          178783.609    
        1093      245815.062          178777.562    
        1094      248491.812          178771.781    
        1095      251197.719          178765.984    
        1096      253933.078          178760.453    
        1097      256698.234          178754.688    
        1098      259493.500          178749.172    
        1099      262319.188          178743.656    
        1100      265175.656          178738.156    
        1101      268063.219          178732.875    
        1102      270982.250          178727.406    
        1103      273933.062          178722.156    
        1104      276916.000          178716.922    
        1105      279931.406          178711.938    
        1106      282979.656          178706.688    
        1107      286061.094          178701.750    
        1108      289176.094          178696.766    
        1109      292325.031          178691.797    
        1110      295508.250          178687.078    
        1111      298726.125          178682.125    
        1112      301979.031          178677.422    
        1113      305267.375          178672.734    
        1114      308591.531          178668.016    
        1115      311951.875          178663.578    
        1116      315348.812          178658.891    
        1117      318782.750          178654.453    
        1118      322254.062          178650.016    
        1119      325763.188          178645.609    
        1120      329310.531          178641.156    
        1121      332896.500          178637.000    
        1122      336521.500          178632.828    
        1123      340185.969          178628.406    
        1124      343890.344          178624.234    
        1125      347635.062          178620.078    
        1126      351420.562          178616.172    
        1127      355247.281          178612.016    
        1128      359115.688          178608.109    
        1129      363026.188          178604.203    
        1130      366979.281          178600.312    
        1131      370975.438          178596.406    
        1132      375015.094          178592.766    
        1133      379098.750          178588.891    
        1134      383226.875          178585.234    
        1135      387399.938          178581.594    
        1136      391618.438          178577.703    
        1137      395882.875          178574.344    
        1138      400193.750          178570.688    
        1139      404551.562          178567.047    
        1140      408956.844          178563.688    
        1141      413410.094          178560.297    
        1142      417911.844          178556.672    
        1143      422462.594          178553.312    
        1144      427062.906          178550.172    
        1145      431713.312          178546.812    
        1146      436414.375          178543.438    
        1147      441166.625          178540.328    
        1148      445970.625          178536.953    
        1149      450826.938          178533.828    
        1150      455736.125          178530.734    
        1151      460698.781          178527.609    
        1152      465715.469          178524.750    
        1153      470786.781          178521.656    
        1154      475913.312          178518.531    
        1155      481095.656          178515.672    
        1156      486334.438          178512.828    
        1157      491630.281          178509.719    
        1158      496983.781          178506.859    
        1159      502395.594          178504.250    
        1160      507866.312          178501.406    
        1161      513396.625          178498.578    
        1162      518987.156          178495.703    
        1163      524638.562          178493.109    
        1164      530351.500          178490.516    
        1165      536126.625          178487.656    
        1166      541964.688          178485.062    
        1167      547866.312          178482.469    
        1168      553832.188          178479.859    
        1169      559863.000          178477.531    
        1170      565959.500          178474.938    
        1171      572122.375          178472.344    
        1172      578352.375          178469.984    
        1173      584650.250          178467.391    
        1174      591016.688          178465.062    
        1175      597452.438          178462.719    
        1176      603958.250          178460.375    
        1177      610534.938          178458.031    
        1178      617183.250          178455.703    
        1179      623903.938          178453.359    
        1180      630697.812          178451.016    
        1181      637565.688          178448.938    
        1182      644508.312          178446.594    
        1183      651526.562          178444.516    
        1184      658621.250          178442.172    
        1185      665793.188          178440.078    
        1186      673043.188          178437.984    
        1187      680372.125          178435.922    
        1188      687780.875          178433.812    
        1189      695270.312          178431.719    
        1190      702841.312          178429.656    
        1191      710494.750          178427.812    
        1192      718231.562          178425.734    
        1193      726052.625          178423.641    
        1194      733958.812          178421.812    
        1195      741951.125          178419.984    
        1196      750030.438          178417.891    
        1197      758197.750          178416.062    
        1198      766454.000          178414.219    
        1199      774800.125          178412.391    
        1200      783237.125          178410.562    
        1201      791766.000          178408.719    
        1202      800387.750          178406.891    
        1203      809103.375          178405.047    
        1204      817913.938          178403.469    
        1205      826820.438          178401.641    
        1206      835823.938          178399.797    
        1207      844925.438          178398.219    
        1208      854126.062          178396.375    
        1209      863426.875          178394.797    
        1210      872829.000          178393.219    
        1211      882333.500          178391.391    
        1212      891941.500          178389.781    
        1213      901654.125          178388.203    
        1214      911472.500          178386.625    
        1215      921397.812          178385.031    
        1216      931431.188          178383.453    
        1217      941573.812          178382.125    
        1218      951826.875          178380.547    
        1219      962191.625          178378.938    
        1220      972669.188          178377.609    
        1221      983260.875          178376.016    
        1222      993967.875          178374.438    
        1223      1004791.50          178373.109    
        1224      1015732.94          178371.766    
        1225      1026793.56          178370.172    
        1226      1037974.62          178368.828    
        1227      1049277.38          178367.500    
        1228      1060703.25          178366.156    
        1229      1072253.50          178364.578    
        1230      1083929.62          178363.234    
        1231      1095732.88          178361.891    
        1232      1107664.62          178360.547    
        1233      1119726.25          178359.469    
        1234      1131919.25          178358.109    
        1235      1144245.00          178356.766    
        1236      1156705.00          178355.438    
        1237      1169300.75          178354.094    
        1238      1182033.62          178353.000    
        1239      1194905.12          178351.641    
        1240      1207916.75          178350.547    
        1241      1221070.12          178349.188    
        1242      1234366.75          178348.109    
        1243      1247808.12          178346.781    
        1244      1261395.88          178345.688    
        1245      1275131.62          178344.594    
        1246      1289016.88          178343.250    
        1247      1303053.38          178342.141    
        1248      1317242.75          178341.047    
        1249      1331586.62          178339.938    
        1250      1346086.62          178338.844    
